Folder: UVVisAnalysis/UVVis

File: BareSolarLamp2.csv
,wavelength,intensity,acqTime,time,n
0,178.997,3029.83,11,1.61056e+09,1
14,182.052,3099.46,11,1.61056e+09,1
28,185.105,3070.89,11,1.61056e+09,1
42,188.155,3076.25,11,1.61056e+09,1
56,191.203,3065.54,11,1.61056e+09,1
70,194.25,3045.9,11,1.61056e+09,1
84,197.294,3094.1,11,1.61056e+09,1
98,200.336,3124.46,11,1.61056e+09,1
112,203.376,3128.03,11,1.61056e+09,1
126,206.413,3083.39,11,1.61056e+09,1
140,209.449,3076.25,11,1.61056e+09,1
154,212.482,3147.67,11,1.61056e+09,1
168,215.513,3142.31,11,1.61056e+09,1
182,218.542,3108.39,11,1.61056e+09,1
196,221.569,3056.61,11,1.61056e+09,1
210,224.593,3185.16,11,1.61056e+09,1
224,227.616,3122.67,11,1.61056e+09,1
238,230.636,3151.24,11,1.61056e+09,1
252,233.654,3135.17,11,1.61056e+09,1
266,236.669,3097.67,11,1.61056e+09,1
280,239.683,3113.74,11,1.61056e+09,1
294,242.694,3147.67,11,1.61056e+09,1
308,245.703,3104.82,11,1.61056e+09,1
322,248.709,3144.09,11,1.61056e+09,1
336,251.714,3153.02,11,1.61056e+09,1
350,254.716,3233.36,11,1.61056e+09,1
364,257.716,3188.73,11,1.61056e+09,1
378,260.713,3383.34,11,1.61056e+09,1
392,263.709,3563.66,11,1.61056e+09,1
406,266.702,3781.48,11,1.61056e+09,1
420,269.692,4134.99,11,1.61056e+09,1
434,272.681,4293.89,11,1.61056e+09,1
448,275.667,4493.86,11,1.61056e+09,1
462,278.651,4804.52,11,1.61056e+09,1
476,281.632,5143.75,11,1.61056e+09,1
490,284.611,5243.73,11,1.61056e+09,1
504,287.588,5759.71,11,1.61056e+09,1
518,290.563,6232.84,11,1.61056e+09,1
532,293.535,6609.56,11,1.61056e+09,1
546,296.505,7368.36,11,1.61056e+09,1
560,299.472,7677.23,11,1.61056e+09,1
574,302.437,7880.77,11,1.61056e+09,1
588,305.4,7984.32,11,1.61056e+09,1
602,308.36,8634.21,11,1.61056e+09,1
616,311.318,8962.72,11,1.61056e+09,1
630,314.274,9423.36,11,1.61056e+09,1
644,317.227,9457.28,11,1.61056e+09,1
658,320.178,9675.1,11,1.61056e+09,1
672,323.126,9978.62,11,1.61056e+09,1
686,326.072,10182.2,11,1.61056e+09,1
700,329.016,10308.9,11,1.61056e+09,1
714,331.957,11223,11,1.61056e+09,1
728,334.896,11864,11,1.61056e+09,1
742,337.832,11776.5,11,1.61056e+09,1
756,340.766,12544.2,11,1.61056e+09,1
770,343.697,12458.5,11,1.61056e+09,1
784,346.626,12385.3,11,1.61056e+09,1
798,349.553,12922.7,11,1.61056e+09,1
812,352.477,13304.8,11,1.61056e+09,1
826,355.399,13428,11,1.61056e+09,1
840,358.318,13588.7,11,1.61056e+09,1
854,361.234,14033.3,11,1.61056e+09,1
868,364.148,14843.8,11,1.61056e+09,1
882,367.06,14429.6,11,1.61056e+09,1
896,369.969,14542.1,11,1.61056e+09,1
910,372.876,14206.5,11,1.61056e+09,1
924,375.78,14518.9,11,1.61056e+09,1
938,378.681,14684.9,11,1.61056e+09,1
952,381.581,14533.2,11,1.61056e+09,1
966,384.477,14931.3,11,1.61056e+09,1
980,387.371,15415.2,11,1.61056e+09,1
994,390.263,15318.8,11,1.61056e+09,1
1008,393.151,15800.8,11,1.61056e+09,1
1022,396.038,16320.4,11,1.61056e+09,1
1036,398.922,16179.3,11,1.61056e+09,1
1050,401.803,15850.8,11,1.61056e+09,1
1064,404.682,16411.4,11,1.61056e+09,1
1078,407.558,16316.8,11,1.61056e+09,1
1092,410.431,16415,11,1.61056e+09,1
1106,413.302,16647.1,11,1.61056e+09,1
1120,416.17,16493.6,11,1.61056e+09,1
1134,419.036,17316.6,11,1.61056e+09,1
1148,421.899,16707.8,11,1.61056e+09,1
1162,424.76,16461.4,11,1.61056e+09,1
1176,427.618,16734.6,11,1.61056e+09,1
1190,430.473,16986.3,11,1.61056e+09,1
1204,433.325,16863.1,11,1.61056e+09,1
1218,436.175,18070.1,11,1.61056e+09,1
1232,439.023,17698.7,11,1.61056e+09,1
1246,441.867,17768.3,11,1.61056e+09,1
1260,444.709,17341.6,11,1.61056e+09,1
1274,447.549,17516.6,11,1.61056e+09,1
1288,450.385,19152,11,1.61056e+09,1
1302,453.219,18211.1,11,1.61056e+09,1
1316,456.051,19330.6,11,1.61056e+09,1
1330,458.879,19630.5,11,1.61056e+09,1
1344,461.705,21631.9,11,1.61056e+09,1
1358,464.529,22119.4,11,1.61056e+09,1
1372,467.349,26388.3,11,1.61056e+09,1
1386,470.167,24970.6,11,1.61056e+09,1
1400,472.982,27604.1,11,1.61056e+09,1
1414,475.795,23658.4,11,1.61056e+09,1
1428,478.604,24727.8,11,1.61056e+09,1
1442,481.411,29505.6,11,1.61056e+09,1
1456,484.215,29382.4,11,1.61056e+09,1
1470,487.017,28823.5,11,1.61056e+09,1
1484,489.815,29659.1,11,1.61056e+09,1
1498,492.611,33126.4,11,1.61056e+09,1
1512,495.405,30157.2,11,1.61056e+09,1
1526,498.195,29560.9,11,1.61056e+09,1
1540,500.983,29398.4,11,1.61056e+09,1
1554,503.767,29659.1,11,1.61056e+09,1
1568,506.549,29318.1,11,1.61056e+09,1
1582,509.329,29923.4,11,1.61056e+09,1
1596,512.105,30030.5,11,1.61056e+09,1
1610,514.879,30416.1,11,1.61056e+09,1
1624,517.65,30489.3,11,1.61056e+09,1
1638,520.418,30860.7,11,1.61056e+09,1
1652,523.183,30603.6,11,1.61056e+09,1
1666,525.945,30519.7,11,1.61056e+09,1
1680,528.705,30250.1,11,1.61056e+09,1
1694,531.461,29859.1,11,1.61056e+09,1
1708,534.215,29619.8,11,1.61056e+09,1
1722,536.966,29557.3,11,1.61056e+09,1
1736,539.714,28770,11,1.61056e+09,1
1750,542.459,28957.5,11,1.61056e+09,1
1764,545.202,29712.7,11,1.61056e+09,1
1778,547.941,28655.7,11,1.61056e+09,1
1792,550.678,27938,11,1.61056e+09,1
1806,553.411,27882.6,11,1.61056e+09,1
1820,556.142,27243.5,11,1.61056e+09,1
1834,558.87,26856,11,1.61056e+09,1
1848,561.595,26906,11,1.61056e+09,1
1862,564.317,26304.3,11,1.61056e+09,1
1876,567.036,26081.2,11,1.61056e+09,1
1890,569.753,25866.9,11,1.61056e+09,1
1904,572.466,25743.7,11,1.61056e+09,1
1918,575.176,25284.9,11,1.61056e+09,1
1932,577.884,25172.4,11,1.61056e+09,1
1946,580.588,24620.7,11,1.61056e+09,1
1960,583.289,24283.3,11,1.61056e+09,1
1974,585.988,24074.4,11,1.61056e+09,1
1988,588.683,23672.7,11,1.61056e+09,1
2002,591.376,23481.6,11,1.61056e+09,1
2016,594.066,22847.8,11,1.61056e+09,1
2030,596.752,22438.9,11,1.61056e+09,1
2044,599.436,21789.1,11,1.61056e+09,1
2058,602.116,21558.7,11,1.61056e+09,1
2072,604.794,21151.7,11,1.61056e+09,1
2086,607.469,20651.8,11,1.61056e+09,1
2100,610.14,20496.4,11,1.61056e+09,1
2114,612.809,20558.9,11,1.61056e+09,1
2128,615.474,20112.6,11,1.61056e+09,1
2142,618.137,19962.6,11,1.61056e+09,1
2156,620.796,19807.3,11,1.61056e+09,1
2170,623.452,19441.3,11,1.61056e+09,1
2184,626.106,18978.8,11,1.61056e+09,1
2198,628.756,18903.8,11,1.61056e+09,1
2212,631.403,19132.4,11,1.61056e+09,1
2226,634.047,18705.7,11,1.61056e+09,1
2240,636.688,18307.5,11,1.61056e+09,1
2254,639.326,18123.6,11,1.61056e+09,1
2268,641.961,17525.5,11,1.61056e+09,1
2282,644.593,17711.2,11,1.61056e+09,1
2296,647.221,17664.8,11,1.61056e+09,1
2310,649.847,17305.9,11,1.61056e+09,1
2324,652.469,16747.1,11,1.61056e+09,1
2338,655.089,16356.1,11,1.61056e+09,1
2352,657.705,15765.1,11,1.61056e+09,1
2366,660.318,15652.6,11,1.61056e+09,1
2380,662.928,15333,11,1.61056e+09,1
2394,665.535,15367,11,1.61056e+09,1
2408,668.138,15113.4,11,1.61056e+09,1
2422,670.739,15074.2,11,1.61056e+09,1
2436,673.336,14754.6,11,1.61056e+09,1
2450,675.93,14517.1,11,1.61056e+09,1
2464,678.521,14019,11,1.61056e+09,1
2478,681.109,14011.8,11,1.61056e+09,1
2492,683.693,14786.7,11,1.61056e+09,1
2506,686.275,14079.7,11,1.61056e+09,1
2520,688.853,13570.8,11,1.61056e+09,1
2534,691.428,12981.7,11,1.61056e+09,1
2548,694,12130,11,1.61056e+09,1
2562,696.568,11746.2,11,1.61056e+09,1
2576,699.133,11351.6,11,1.61056e+09,1
2590,701.695,10921.3,11,1.61056e+09,1
2604,704.254,10596.4,11,1.61056e+09,1
2618,706.81,10628.5,11,1.61056e+09,1
2632,709.362,10616,11,1.61056e+09,1
2646,711.911,11007,11,1.61056e+09,1
2660,714.457,10462.5,11,1.61056e+09,1
2674,717,9864.35,11,1.61056e+09,1
2688,719.539,9369.79,11,1.61056e+09,1
2702,722.075,9114.48,11,1.61056e+09,1
2716,724.608,8773.47,11,1.61056e+09,1
2730,727.137,8935.94,11,1.61056e+09,1
2744,729.663,8946.65,11,1.61056e+09,1
2758,732.186,9469.78,11,1.61056e+09,1
2772,734.706,8723.48,11,1.61056e+09,1
2786,737.222,8193.21,11,1.61056e+09,1
2800,739.735,8080.73,11,1.61056e+09,1
2814,742.244,7664.73,11,1.61056e+09,1
2828,744.75,7375.5,11,1.61056e+09,1
2842,747.253,7389.78,11,1.61056e+09,1
2856,749.753,7559.4,11,1.61056e+09,1
2870,752.249,7462.98,11,1.61056e+09,1
2884,754.742,7193.39,11,1.61056e+09,1
2898,757.231,7145.18,11,1.61056e+09,1
2912,759.717,7320.15,11,1.61056e+09,1
2926,762.2,7945.04,11,1.61056e+09,1
2940,764.679,9509.06,11,1.61056e+09,1
2954,767.155,6820.24,11,1.61056e+09,1
2968,769.628,5836.48,11,1.61056e+09,1
2982,772.097,5607.95,11,1.61056e+09,1
2996,774.563,5400.84,11,1.61056e+09,1
3010,777.025,5191.95,11,1.61056e+09,1
3024,779.484,4843.8,11,1.61056e+09,1
3038,781.94,4849.15,11,1.61056e+09,1
3052,784.392,4717.03,11,1.61056e+09,1
3066,786.84,4622.41,11,1.61056e+09,1
3080,789.286,5063.4,11,1.61056e+09,1
3094,791.727,4770.6,11,1.61056e+09,1
3108,794.166,4508.14,11,1.61056e+09,1
3122,796.6,4581.34,11,1.61056e+09,1
3136,799.032,4443.87,11,1.61056e+09,1
3150,801.46,4238.55,11,1.61056e+09,1
3164,803.884,4045.72,11,1.61056e+09,1
3178,806.305,4097.5,11,1.61056e+09,1
3192,808.722,3913.6,11,1.61056e+09,1
3206,811.136,3893.96,11,1.61056e+09,1
3220,813.547,3817.19,11,1.61056e+09,1
3234,815.954,3926.1,11,1.61056e+09,1
3248,818.357,4186.77,11,1.61056e+09,1
3262,820.757,5629.38,11,1.61056e+09,1
3276,823.153,12415.7,11,1.61056e+09,1
3290,825.546,9025.21,11,1.61056e+09,1
3304,827.935,7796.85,11,1.61056e+09,1
3318,830.321,5215.16,11,1.61056e+09,1
3332,832.703,4317.1,11,1.61056e+09,1
3346,835.082,5108.04,11,1.61056e+09,1
3360,837.457,3920.74,11,1.61056e+09,1
3374,839.829,3520.81,11,1.61056e+09,1
3388,842.196,3572.59,11,1.61056e+09,1
3402,844.561,3308.35,11,1.61056e+09,1
3416,846.922,3222.65,11,1.61056e+09,1
3430,849.279,3238.72,11,1.61056e+09,1
3444,851.632,3160.16,11,1.61056e+09,1
3458,853.982,3204.8,11,1.61056e+09,1
3472,856.329,3185.16,11,1.61056e+09,1
3486,858.671,3129.81,11,1.61056e+09,1
3500,861.01,3181.59,11,1.61056e+09,1
3514,863.346,3097.67,11,1.61056e+09,1
3528,865.678,3176.23,11,1.61056e+09,1
3542,868.006,3117.31,11,1.61056e+09,1
3556,870.331,3051.25,11,1.61056e+09,1
3570,872.651,3099.46,11,1.61056e+09,1
3584,874.969,3126.24,11,1.61056e+09,1
3598,877.282,3163.73,11,1.61056e+09,1
3612,879.592,3179.8,11,1.61056e+09,1
3626,881.898,3140.52,11,1.61056e+09,1
3640,884.201,3319.06,11,1.61056e+09,1
3647,885.351,3360.13,11,1.61056e+09,1